timestamp,ax,ay,az,gx,gy,gz
0.0,0.6775,-0.3025,0.9668,11.938,49.25,24.594
5.0,0.636925,-0.3053,0.9963,12.74175,51.03875,32.2185
10.0,0.60146,-0.30996,1.01698,13.381,51.919000000000004,38.5938
15.0,0.57258,-0.3118,1.03204,13.193800000000001,52.2438,43.4752
20.0,0.542,-0.30835,1.0476,11.4845,52.031,48.078
25.0,0.5059,-0.29507500000000003,1.06565,7.140750000000001,50.866749999999996,52.508
30.0,0.47274,-0.2753,1.08162,1.3940000000000001,48.9876,55.7688
35.0,0.429,-0.2451,1.0996,-7.062,46.125,59.281
40.0,0.3838,-0.2166,1.115,-15.312000000000001,43.531,62.062
45.0,0.31007999999999997,-0.18955999999999998,1.1365,-25.9438,41.431,65.0312
50.0,0.2264,-0.17732,1.16014,-35.0752,41.2686,66.84360000000001
55.0,0.10717499999999999,-0.173375,1.1942499999999998,-44.922,42.6955,67.4065
60.0,-0.06201999999999999,-0.16958,1.24402,-56.412800000000004,44.3502,65.63119999999999
65.0,-0.21269019607843137,-0.15880980392156863,1.2450254901960784,-72.18933333333334,23.733333333333334,68.00074509803922
70.0,-0.34216568627450983,-0.14133431372549018,1.1728392156862746,-95.78766666666667,-28.65333333333335,78.47260784313725
75.0,-0.47164117647058823,-0.12385882352941177,1.1006529411764707,-119.386,-81.04,88.94447058823529
80.0,-0.6011166666666667,-0.10638333333333333,1.0284666666666666,-142.98433333333332,-133.42666666666668,99.41633333333333
85.0,-0.7305921568627451,-0.08890784313725489,0.9562803921568628,-166.58266666666665,-185.8133333333334,109.88819607843138
90.0,-0.8600676470588235,-0.07143235294117646,0.8840941176470589,-190.18099999999998,-238.20000000000005,120.36005882352941
95.0,-0.989543137254902,-0.05395686274509803,0.811907843137255,-213.7793333333333,-290.5866666666667,130.83192156862742
100.0,-1.1190186274509804,-0.03648137254901959,0.7397215686274511,-237.37766666666664,-342.97333333333336,141.3037843137255
105.0,-1.248494117647059,-0.019005882352941178,0.6675352941176471,-260.976,-395.36,151.7756470588235
110.0,-1.3779696078431374,-0.0015303921568627366,0.5953490196078433,-284.5743333333333,-447.74666666666667,162.24750980392156
115.0,-1.5074450980392158,0.015945098039215677,0.5231627450980394,-308.1726666666666,-500.1333333333333,172.71937254901957
120.0,-1.6369205882352944,0.033420588235294146,0.4509764705882353,-331.77099999999996,-552.5200000000001,183.19123529411763
125.0,-1.7663960784313726,0.05089607843137256,0.37879019607843156,-355.36933333333326,-604.9066666666666,193.66309803921564
130.0,-1.8958715686274512,0.068371568627451,0.3066039215686276,-378.9676666666666,-657.2933333333334,204.1349607843137
135.0,-2.0253470588235296,0.08584705882352944,0.2344176470588235,-402.566,-709.6800000000002,214.60682352941177
140.0,-2.154822549019608,0.10332254901960786,0.16223137254901965,-426.1643333333333,-762.0666666666667,225.07868627450978
145.0,-2.2842980392156864,0.12079803921568633,0.09004509803921579,-449.76266666666663,-814.4533333333335,235.55054901960784
150.0,-2.4137735294117646,0.13827352941176474,0.017858823529411927,-473.36099999999993,-866.84,246.02241176470585
155.0,-2.543249019607843,0.15574901960784315,-0.054327450980392156,-496.9593333333333,-919.2266666666668,256.4942745098039
160.0,-2.6727245098039214,0.17322450980392157,-0.1265137254901958,-520.5576666666666,-971.6133333333333,266.9661372549019
165.0,-2.8022,0.19070000000000004,-0.19869999999999988,-544.156,-1024.0,277.438
170.0,-3.2384,0.1619,-0.72985,-636.4685,-1024.0,305.6875
175.0,-3.787775,0.12785000000000002,-1.3444500000000001,-733.11725,-1024.0,321.19575
180.0,-3.763839130434783,-0.1588782608695652,-2.319286956521739,-768.0395217391305,-1024.0,259.7966956521739
185.0,-3.578513043478261,-0.5042260869565218,-3.3638956521739134,-785.9401739130435,-1024.0,180.5575652173913
190.0,-3.393186956521739,-0.8495739130434783,-4.408504347826087,-803.8408260869566,-1024.0,101.31843478260868
195.0,-3.2078608695652173,-1.1949217391304348,-5.453113043478261,-821.7414782608696,-1024.0,22.079304347826053
200.0,-2.716875,-1.4797500000000001,-6.3527000000000005,-804.484,-991.078,-61.522999999999996
205.0,-1.19878,-1.4724000000000002,-6.41452,-655.55,-819.7748,-141.4312
210.0,-0.14865999999999996,-1.36886,-5.91474,-527.5252,-634.0814,-176.6564
215.0,0.4465,-1.2072500000000002,-5.005,-413.922,-423.875,-182.0315
220.0,0.44501999999999997,-1.0174400000000001,-4.0823599999999995,-330.8438,-229.81279999999998,-166.5002
225.0,0.05072500000000002,-0.8036000000000001,-3.335975,-257.24225,-76.05499999999999,-145.46875
230.0,-0.33272,-0.62636,-2.8371399999999998,-184.3248,-1.7439999999999998,-131.9504
235.0,-0.5151,-0.4749,-2.343,-93.344,14.156,-123.094
240.0,-0.3928,-0.3899,-1.9558,-24.25,-9.374999999999998,-116.531
245.0,-0.1616,-0.3132,-1.6343,25.656,-37.5,-107.375
250.0,0.066775,-0.206225,-1.39975,53.76575,-60.49250000000001,-93.7265
255.0,0.15676,-0.10266,-1.3222399999999999,55.2312,-71.4436,-82.2686
260.0,0.1725,-0.011349999999999999,-1.32835,42.469,-77.2655,-73.578
265.0,0.17942,0.06472,-1.36608,22.937600000000003,-79.8996,-66.6688
270.0,0.20198000000000002,0.11812,-1.4019,3.756400000000001,-77.93119999999999,-60.894
275.0,0.23715,0.159275,-1.429775,-16.68,-69.0075,-53.55475
280.0,0.25658000000000003,0.17414,-1.43476,-31.8124,-55.1124,-45.1254
285.0,0.252,0.1614,-1.4131,-43.812,-36.0,-33.031
290.0,0.2283,0.1199,-1.3677,-47.812,-20.375,-21.094
295.0,0.1951,0.030199999999999998,-1.2861200000000002,-44.6688,-5.156599999999999,-6.406600000000001
300.0,0.171725,-0.076025,-1.203125,-35.89075,4.828250000000001,5.015750000000001
305.0,0.15803999999999999,-0.20894000000000001,-1.11186,-21.180999999999997,12.643600000000001,14.368400000000001
310.0,0.1543,-0.33175,-1.0319,-4.703,18.3125,19.578000000000003
315.0,0.15392,-0.43224,-0.96034,11.587200000000001,23.043599999999998,21.3748
320.0,0.15116,-0.49673999999999996,-0.90196,24.6998,26.6438,20.849800000000002
325.0,0.14855533980582525,-0.5218912621359223,-0.8844087378640777,29.17264077669903,27.788766990291265,19.565844660194173
330.0,0.14714757281553398,-0.5278766990291262,-0.8924233009708739,28.418708737864076,27.4883786407767,18.217252427184466
335.0,0.14573980582524274,-0.5338621359223301,-0.9004378640776699,27.664776699029126,27.187990291262135,16.86866019417476
340.0,0.14433203883495146,-0.539847572815534,-0.9084524271844661,26.910844660194176,26.887601941747572,15.520067961165049
345.0,0.1429242718446602,-0.5458330097087378,-0.9164669902912622,26.156912621359222,26.58721359223301,14.17147572815534
350.0,0.14151650485436892,-0.5518184466019417,-0.9244815533980583,25.402980582524272,26.286825242718447,12.822883495145632
355.0,0.14010873786407768,-0.5578038834951456,-0.9324961165048544,24.649048543689318,25.986436893203884,11.474291262135923
360.0,0.1387009708737864,-0.5637893203883495,-0.9405106796116505,23.895116504854368,25.68604854368932,10.125699029126213
365.0,0.13729320388349514,-0.5697747572815534,-0.9485252427184466,23.141184466019418,25.385660194174758,8.777106796116506
370.0,0.13588543689320387,-0.5757601941747572,-0.9565398058252428,22.387252427184464,25.085271844660195,7.428514563106797
375.0,0.13447766990291263,-0.5817456310679612,-0.9645543689320388,21.633320388349514,24.784883495145632,6.079922330097089
380.0,0.13306990291262136,-0.587731067961165,-0.972568932038835,20.879388349514564,24.48449514563107,4.73133009708738
385.0,0.1316621359223301,-0.5937165048543689,-0.980583495145631,20.12545631067961,24.184106796116506,3.382737864077672
390.0,0.13025436893203884,-0.5997019417475727,-0.9885980582524272,19.37152427184466,23.88371844660194,2.034145631067961
395.0,0.12884660194174757,-0.6056873786407767,-0.9966126213592232,18.61759223300971,23.583330097087376,0.6855533980582535
400.0,0.1274388349514563,-0.6116728155339806,-1.0046271844660195,17.863660194174756,23.282941747572814,-0.663038834951454
405.0,0.12603106796116503,-0.6176582524271844,-1.0126417475728156,17.109728155339806,22.98255339805825,-2.011631067961165
410.0,0.12462330097087379,-0.6236436893203883,-1.0206563106796116,16.355796116504855,22.682165048543688,-3.3602233009708726
415.0,0.12321553398058252,-0.6296291262135922,-1.0286708737864076,15.601864077669902,22.381776699029125,-4.708815533980584
420.0,0.12180776699029125,-0.6356145631067961,-1.036685436893204,14.847932038834951,22.08138834951456,-6.057407766990291
425.0,0.1204,-0.6416,-1.0447,14.094,21.781,-7.405999999999999
430.0,0.12110454545454545,-0.6376681818181817,-1.0302681818181818,14.633772727272728,22.320772727272725,-7.633272727272727
435.0,0.12180909090909091,-0.6337363636363635,-1.0158363636363636,15.173545454545454,22.860545454545452,-7.860545454545455
440.0,0.12251363636363637,-0.6298045454545455,-1.0014045454545455,15.713318181818183,23.40031818181818,-8.087818181818182
445.0,0.12321818181818181,-0.6258727272727272,-0.9869727272727272,16.25309090909091,23.94009090909091,-8.315090909090909
450.0,0.1177,-0.6196,-0.9646,16.469,24.156,-8.406
455.0,0.11398,-0.61798,-0.944,15.1812,20.5938,-7.0312
460.0,0.114,-0.61975,-0.9325,13.7345,17.5,-6.0785
465.0,0.1154,-0.62356,-0.9264,11.9872,14.5004,-5.3124
470.0,0.11705,-0.6292500000000001,-0.92485,9.906500000000001,11.77375,-4.73425
475.0,0.11876,-0.63612,-0.92616,7.7372000000000005,9.918999999999999,-4.525
480.0,0.1218,-0.6443,-0.9287,5.156,8.688,-4.875
485.0,0.1257,-0.6499,-0.9304,3.312,8.469,-5.844
490.0,0.13168,-0.6524,-0.93104,2.1752,9.0748,-7.6684
495.0,0.13692000000000001,-0.6506799999999999,-0.92976,2.1124,9.975,-9.4628
500.0,0.14145,-0.6451,-0.9258,2.7965,11.1875,-11.4145
505.0,0.14479999999999998,-0.63568,-0.9188,3.8248,12.6502,-13.5816
510.0,0.1461,-0.6251,-0.91065,4.5155,14.094000000000001,-15.562999999999999
515.0,0.14596,-0.61452,-0.9019,4.5876,15.481399999999999,-17.3938
520.0,0.14505,-0.604425,-0.892625,3.9375,16.78875,-19.1095
525.0,0.14415999999999998,-0.59646,-0.88476,2.75,17.862000000000002,-20.418599999999998
530.0,0.1436,-0.5891,-0.8772,0.9060000000000001,19.094,-21.656
535.0,0.1426,-0.5847,-0.8743,-0.906,20.25,-22.469
540.0,0.14056,-0.58224,-0.87716,-3.0502,21.8308,-23.0376
545.0,0.13792,-0.582,-0.88346,-4.65,23.168599999999998,-23.137999999999998
550.0,0.135575,-0.5817749999999999,-0.8921250000000001,-6.0155,24.51575,-22.766
555.0,0.13440000000000002,-0.57935,-0.90115,-7.234,26.0,-21.75
560.0,0.1351,-0.57424,-0.90566,-8.1624,27.4004,-20.537200000000002
565.0,0.1355,-0.56822,-0.90718,-9.1,28.968799999999998,-19.2562
570.0,0.134,-0.5615,-0.9075,-10.391,31.156,-17.54675
575.0,0.13061999999999999,-0.55674,-0.9071,-11.762400000000001,33.4064,-15.756
580.0,0.1265,-0.5547,-0.905,-13.5,36.094,-13.531
