timestamp,ax,ay,az,gx,gy,gz
0.0,0.5491,0.6665,1.2739,11.188,103.438,35.625
5.0,0.5728,0.7593,1.3367,3.0,111.125,38.812
10.0,0.5989,0.86458,1.41514,-11.55,119.98100000000001,43.606
15.0,0.62095,0.952725,1.478425,-28.586,127.56225,48.906
20.0,0.64522,1.0478399999999999,1.53216,-52.61880000000001,135.806,56.5312
25.0,0.6686000000000001,1.141,1.56125,-81.0935,143.984,66.3285
30.0,0.6918000000000001,1.2409999999999999,1.56502,-114.85600000000001,152.7434,79.36880000000001
35.0,0.7121999999999999,1.34324,1.54714,-149.431,161.2438,94.706
40.0,0.7330249999999999,1.4789,1.508475,-192.11675000000002,171.23425,116.898
45.0,0.7457,1.62148,1.4666,-232.762,179.9564,141.9876
50.0,0.7449,1.804,1.4253,-281.125,188.688,176.25
55.0,0.72,1.9712,1.407,-324.812,193.938,209.469
60.0,0.64672,2.17904,1.41724,-384.0814,196.6376,252.3816
65.0,0.54535,2.35,1.45645,-442.8435,196.76525,289.742
70.0,0.43850229007633584,2.4173618320610686,1.462975572519084,-481.8477938931298,193.99619083969466,309.8912213740458
75.0,0.3952580152671756,2.3097664122137402,1.375414503816794,-464.5147786259542,187.4241679389313,295.8692748091603
80.0,0.35201374045801526,2.202170992366412,1.2878534351145037,-447.18176335877865,180.85214503816795,281.8473282442748
85.0,0.308769465648855,2.094575572519084,1.2002923664122136,-429.84874809160306,174.2801221374046,267.8253816793893
90.0,0.2655251908396946,1.9869801526717557,1.1127312977099235,-412.51573282442746,167.7080992366412,253.80343511450383
95.0,0.22228091603053432,1.8793847328244273,1.0251702290076334,-395.1827175572519,161.13607633587787,239.7814885496183
100.0,0.17903664122137403,1.7717893129770992,0.9376091603053435,-377.8497022900764,154.5640534351145,225.75954198473283
105.0,0.1357923664122137,1.6641938931297708,0.8500480916030533,-360.5166870229008,147.99203053435113,211.7375954198473
110.0,0.09254809160305344,1.5565984732824427,0.7624870229007633,-343.1836717557252,141.42000763358777,197.71564885496184
115.0,0.04930381679389312,1.4490030534351144,0.6749259541984732,-325.8506564885496,134.84798473282444,183.69370229007635
120.0,0.006059541984732797,1.3414076335877863,0.5873648854961832,-308.51764122137405,128.27596183206106,169.67175572519085
125.0,-0.037184732824427524,1.233812213740458,0.49980381679389296,-291.1846259541985,121.7039389312977,155.64980916030535
130.0,-0.08042900763358785,1.1262167938931298,0.4122427480916029,-273.8516106870229,115.13191603053434,141.62786259541986
135.0,-0.12367328244274811,1.0186213740458017,0.324681679389313,-256.5185954198473,108.559893129771,127.60591603053436
140.0,-0.1669175572519085,0.9110259541984731,0.23712061068702273,-239.18558015267175,101.98787022900763,113.58396946564883
145.0,-0.21016183206106875,0.803430534351145,0.14955954198473265,-221.85256488549618,95.41584732824427,99.56202290076337
150.0,-0.25340610687022913,0.6958351145038166,0.06199847328244257,-204.51954961832058,88.8438244274809,85.54007633587784
155.0,-0.2966503816793893,0.5882396946564885,-0.02556259541984751,-187.18653435114504,82.27180152671755,71.51812977099237
160.0,-0.33989465648854955,0.4806442748091604,-0.11312366412213737,-169.8535190839695,75.6997786259542,57.49618320610688
165.0,-0.38313893129770993,0.3730488549618318,-0.20068473282442767,-152.5205038167939,69.12775572519082,43.47423664122135
170.0,-0.4263832061068702,0.2654534351145039,-0.28824580152671775,-135.18748854961837,62.55573282442748,29.452290076335885
175.0,-0.46962748091603057,0.15785801526717558,-0.37580687022900783,-117.85447328244277,55.983709923664094,15.43034351145036
180.0,-0.5128717557251908,0.050262595419847234,-0.4633679389312979,-100.52145801526717,49.411687022900765,1.408396946564892
185.0,-0.5561160305343513,-0.05733282442748111,-0.5509290076335882,-83.18844274809157,42.83966412213738,-12.613549618320633
190.0,-0.5993603053435115,-0.164928244274809,-0.6384900763358783,-65.85542748091603,36.26764122137405,-26.6354961832061
195.0,-0.6426045801526716,-0.27252366412213735,-0.7260511450381679,-48.522412213740495,29.69561832061069,-40.65744274809157
200.0,-0.6570421052631579,-0.35938421052631575,-0.8001736842105264,-35.392842105263156,17.95278947368421,-49.676
205.0,-0.5562526315789474,-0.36330526315789474,-0.820542105263158,-39.077052631578944,-14.473263157894738,-38.681
210.0,-0.45546315789473685,-0.3672263157894737,-0.8409105263157896,-42.76126315789473,-46.89931578947369,-27.686
215.0,-0.35467368421052636,-0.3711473684210526,-0.8612789473684211,-46.445473684210526,-79.32536842105263,-16.691000000000003
220.0,-0.2777,-0.3619,-0.8371500000000001,-47.0625,-102.9685,-4.156499999999999
225.0,-0.2567,-0.33716,-0.75334,-45.244,-106.1252,8.5496
230.0,-0.272525,-0.314825,-0.668,-46.336,-96.156,19.9995
235.0,-0.32936000000000004,-0.29958,-0.60562,-48.3748,-76.88759999999999,27.512
240.0,-0.4414,-0.2886,-0.5603,-49.688,-50.188,32.844
245.0,-0.5645,-0.2876,-0.55,-48.531,-31.031,34.906
250.0,-0.6909,-0.2954,-0.5588,-44.875,-19.469,35.281
255.0,-0.7983,-0.3088,-0.5737,-38.656,-16.25,33.938
260.0,-0.8765999999999999,-0.317875,-0.574975,-28.49225,-20.4375,29.66375
265.0,-0.89476,-0.30826,-0.54796,-19.1564,-25.900199999999998,24.0938
270.0,-0.8762399999999999,-0.28509999999999996,-0.50414,-12.9124,-28.188,18.868399999999998
275.0,-0.83535,-0.2505,-0.44630000000000003,-9.6405,-25.891,13.75
280.0,-0.79266,-0.21674000000000002,-0.39632,-10.606399999999999,-18.587600000000002,9.943800000000001
285.0,-0.7617499999999999,-0.189775,-0.3689,-15.578,-7.445500000000001,7.422000000000001
290.0,-0.75342,-0.17268,-0.37476,-22.6812,3.6064,6.269
295.0,-0.7659,-0.1572,-0.4153,-32.344,14.688000000000002,6.094
300.0,-0.7925,-0.1462,-0.4741,-40.594,20.719,6.938
305.0,-0.8362,-0.13726,-0.56118,-49.300200000000004,22.9436,8.9062
310.0,-0.8768,-0.13315,-0.640675,-55.1485,21.195500000000003,11.04675
315.0,-0.9182,-0.13218,-0.72248,-59.0814,16.6124,13.2316
320.0,-0.9519,-0.13340000000000002,-0.79175,-60.5315,11.6095,14.6095
325.0,-0.97972,-0.13816,-0.85166,-59.8066,7.712400000000001,14.975200000000001
330.0,-1.003475,-0.149225,-0.905025,-56.711,5.74225,14.070250000000001
335.0,-1.0080731343283582,-0.15347611940298508,-0.908465671641791,-53.19777611940299,4.642492537313433,12.624283582089554
340.0,-1.0077895522388058,-0.15519626865671643,-0.8990477611940298,-49.851246268656716,3.609358208955224,11.178388059701494
345.0,-1.0075059701492537,-0.15691641791044778,-0.8896298507462687,-46.504716417910444,2.576223880597015,9.732492537313433
350.0,-1.0072223880597015,-0.15863656716417912,-0.8802119402985075,-43.15818656716418,1.543089552238806,8.286597014925373
355.0,-1.0069388059701492,-0.16035671641791047,-0.8707940298507463,-39.811656716417914,0.5099552238805973,6.840701492537314
360.0,-1.006655223880597,-0.1620768656716418,-0.8613761194029851,-36.46512686567164,-0.5231791044776122,5.394805970149255
365.0,-1.0063716417910447,-0.16379701492537313,-0.8519582089552239,-33.11859701492537,-1.5563134328358217,3.948910447761195
370.0,-1.0060880597014925,-0.16551716417910448,-0.8425402985074627,-29.772067164179106,-2.589447761194031,2.503014925373135
375.0,-1.0058044776119404,-0.16723731343283582,-0.8331223880597015,-26.425537313432837,-3.62258208955224,1.0571194029850748
380.0,-1.005520895522388,-0.16895746268656717,-0.8237044776119403,-23.07900746268657,-4.655716417910448,-0.3887761194029853
385.0,-1.0052373134328358,-0.1706776119402985,-0.8142865671641791,-19.732477611940297,-5.688850746268657,-1.8346716417910436
390.0,-1.0049537313432835,-0.17239776119402986,-0.8048686567164179,-16.385947761194032,-6.721985074626866,-3.2805671641791054
395.0,-1.0046701492537313,-0.1741179104477612,-0.7954507462686567,-13.03941791044776,-7.755119402985076,-4.726462686567162
400.0,-1.004386567164179,-0.17583805970149255,-0.7860328358208954,-9.692888059701488,-8.788253731343286,-6.172358208955226
405.0,-1.0041029850746268,-0.1775582089552239,-0.7766149253731343,-6.346358208955223,-9.821388059701494,-7.618253731343286
410.0,-1.0038194029850747,-0.1792783582089552,-0.7671970149253731,-2.9998283582089513,-10.854522388059703,-9.064149253731346
415.0,-1.0035358208955223,-0.18099850746268656,-0.7577791044776119,0.3467014925373135,-11.887656716417911,-10.510044776119402
420.0,-1.0032522388059701,-0.1827186567164179,-0.7483611940298507,3.6932313432835855,-12.92079104477612,-11.955940298507462
425.0,-1.0029686567164178,-0.18443880597014925,-0.7389432835820895,7.03976119402985,-13.953925373134329,-13.401835820895522
430.0,-1.0026850746268656,-0.1861589552238806,-0.7295253731343283,10.386291044776115,-14.987059701492537,-14.847731343283582
435.0,-1.0024014925373135,-0.18787910447761194,-0.7201074626865671,13.732820895522394,-16.020194029850746,-16.29362686567164
440.0,-1.002117910447761,-0.1895992537313433,-0.7106895522388059,17.07935074626866,-17.053328358208958,-17.739522388059704
445.0,-1.001834328358209,-0.1913194029850746,-0.7012716417910447,20.425880597014924,-18.086462686567167,-19.18541791044776
450.0,-1.0015507462686566,-0.19303955223880595,-0.6918537313432835,23.77241044776119,-19.119597014925375,-20.631313432835825
455.0,-1.0012671641791044,-0.1947597014925373,-0.6824358208955223,27.118940298507468,-20.152731343283584,-22.07720895522388
460.0,-1.000983582089552,-0.19647985074626864,-0.6730179104477612,30.465470149253733,-21.185865671641793,-23.523104477611945
465.0,-1.0007,-0.1982,-0.6636,33.812,-22.219,-24.969
470.0,-0.9950999999999999,-0.194125,-0.643875,38.171499999999995,-25.39075,-27.43775
475.0,-0.9894999999999999,-0.19005,-0.62415,42.531,-28.5625,-29.9065
480.0,-0.9839,-0.185975,-0.604425,46.8905,-31.73425,-32.37525
485.0,-0.9783,-0.1819,-0.5847,51.25,-34.906,-34.844
490.0,-0.9696333333333333,-0.17796666666666666,-0.5699,51.75,-36.156,-35.875
495.0,-0.9563,-0.1707,-0.5457,51.594,-38.281,-36.562
500.0,-0.9539799999999999,-0.16576,-0.5364,49.705999999999996,-39.6254,-36.6624
505.0,-0.96,-0.1634,-0.53854,47.381,-40.5812,-36.1308
510.0,-0.97505,-0.16297499999999998,-0.552975,44.71075,-41.77325,-35.12475
515.0,-1.00124,-0.16613999999999998,-0.58464,42.6124,-43.7498,-33.9186
520.0,-1.0350000000000001,-0.17285,-0.62705,42.546499999999995,-46.578,-33.203
525.0,-1.07584,-0.18136,-0.67624,45.0498,-50.3812,-33.3124
530.0,-1.12235,-0.189925,-0.729075,50.5,-55.14075,-34.578500000000005
535.0,-1.16284,-0.1969,-0.7733,57.8998,-59.7438,-36.9124
540.0,-1.2021,-0.2061,-0.8152,68.969,-64.844,-40.906
545.0,-1.2263,-0.2144,-0.8403,80.625,-68.562,-45.531
550.0,-1.2444,-0.22,-0.8569,94.156,-71.656,-51.25
555.0,-1.25868,-0.22008,-0.86382,111.8624,-74.3684,-59.306200000000004
560.0,-1.263825,-0.2152,-0.8564499999999999,127.359,-75.72675,-66.867
565.0,-1.2575399999999999,-0.20836000000000002,-0.82846,143.0124,-75.9126,-75.26259999999999
570.0,-1.2377,-0.20435,-0.78235,155.6875,-74.8595,-83.0625
575.0,-1.20628,-0.20424,-0.72184,165.5876,-72.7936,-90.4124
580.0,-1.1679,-0.2072,-0.65335,172.94549999999998,-69.70325,-97.242
585.0,-1.1366,-0.21072,-0.59704,177.2688,-66.1186,-102.156
590.0,-1.1145,-0.2146,-0.5515,180.344,-61.406,-106.094
