timestamp,ax,ay,az,gx,gy,gz
0.0,0.1477,-0.3079,0.7712,20.062,250.031,-33.062
5.0,0.18227894736842104,-0.3302421052631579,0.8057,8.51621052631579,236.281,-28.103315789473683
10.0,0.2168578947368421,-0.3525842105263158,0.8402,-3.029578947368421,222.531,-23.14463157894737
15.0,0.2514368421052632,-0.37492631578947366,0.8747,-14.575368421052634,208.781,-18.185947368421054
20.0,0.27846,-0.3971,0.89962,-23.0058,196.0872,-12.5314
25.0,0.274725,-0.41815,0.8859250000000001,-17.866999999999997,187.42925000000002,-3.4295
30.0,0.27092,-0.43302,0.8747199999999999,-8.375,179.0438,7.5626
35.0,0.27286,-0.43916,0.87258,0.9500000000000002,172.4004,17.3314
40.0,0.28285,-0.44235,0.8799,10.344000000000001,165.6095,27.547
45.0,0.30088,-0.44854,0.8944799999999999,17.3188,159.1936,36.4126
50.0,0.326525,-0.46287500000000004,0.914025,21.281,152.7345,43.59375
55.0,0.35322,-0.483,0.9329,21.956400000000002,146.7688,47.9248
60.0,0.37848,-0.5063799999999999,0.95138,20.469,140.7498,50.1808
65.0,0.4062,-0.5366,0.9739,16.406,132.531,51.312
70.0,0.426,-0.564,0.9924,10.969,124.094,51.625
75.0,0.446275,-0.6031,1.0100250000000002,2.14025,111.00825,51.844
80.0,0.46382,-0.64366,1.01858,-6.6874,97.1938,51.5188
85.0,0.48212,-0.68072,1.01982,-14.043800000000001,84.656,50.1186
90.0,0.5082,-0.72105,1.0168499999999998,-20.969,71.48400000000001,46.781
95.0,0.53806,-0.75892,1.01154,-26.1128,60.1312,41.6812
100.0,0.566125,-0.794025,1.0036,-29.445249999999998,50.789500000000004,35.1405
105.0,0.58268,-0.81906,0.9924999999999999,-30.831,44.2628,28.6816
110.0,0.5913,-0.8374,0.9753,-30.938,38.188,21.25
115.0,0.5933,-0.8435,0.958,-30.0,33.719,15.406
120.0,0.595,-0.84544,0.9346399999999999,-27.912399999999998,28.637999999999998,9.719
125.0,0.596675,-0.84495,0.91085,-24.89875,24.602,6.03925
130.0,0.6001799999999999,-0.84392,0.8800800000000001,-19.081,21.194000000000003,3.1124
135.0,0.60798,-0.84378,0.85022,-11.3686,19.5688,1.0062
140.0,0.6239,-0.8452,0.81665,-0.7185000000000006,19.703,-1.047
145.0,0.647425,-0.847625,0.7797499999999999,11.68,22.289250000000003,-3.0862499999999997
150.0,0.66526,-0.8487399999999999,0.75042,20.2436,25.9938,-4.5434
155.0,0.6765,-0.8469,0.7261000000000001,25.9314,29.95,-5.8376
160.0,0.6824,-0.8396,0.7061,29.875,34.406,-7.188
165.0,0.6819,-0.8308,0.7007,31.0,37.5,-7.906
170.0,0.6711142857142857,-0.8195908163265306,0.6922918367346939,30.885204081632654,36.248418367346936,-9.258040816326531
175.0,0.6603285714285714,-0.8083816326530612,0.6838836734693877,30.770408163265305,34.99683673469388,-10.610081632653062
180.0,0.6495428571428571,-0.7971724489795918,0.6754755102040816,30.65561224489796,33.745255102040815,-11.962122448979592
185.0,0.6387571428571428,-0.7859632653061224,0.6670673469387756,30.540816326530614,32.49367346938776,-13.314163265306123
190.0,0.6279714285714285,-0.774754081632653,0.6586591836734694,30.426020408163264,31.242091836734694,-14.666204081632653
195.0,0.6171857142857142,-0.7635448979591837,0.6502510204081633,30.31122448979592,29.990510204081634,-16.018244897959182
200.0,0.6063999999999999,-0.7523357142857142,0.6418428571428572,30.196428571428573,28.738928571428573,-17.370285714285714
205.0,0.5956142857142857,-0.7411265306122449,0.633434693877551,30.081632653061224,27.48734693877551,-18.722326530612246
210.0,0.5848285714285714,-0.7299173469387755,0.6250265306122449,29.966836734693878,26.23576530612245,-20.074367346938775
215.0,0.5740428571428571,-0.7187081632653061,0.6166183673469388,29.85204081632653,24.98418367346939,-21.426408163265307
220.0,0.5632571428571428,-0.7074989795918367,0.6082102040816326,29.737244897959183,23.732602040816328,-22.778448979591836
225.0,0.5524714285714285,-0.6962897959183674,0.5998020408163266,29.622448979591837,22.481020408163268,-24.130489795918365
230.0,0.5416857142857143,-0.6850806122448979,0.5913938775510205,29.507653061224488,21.229438775510207,-25.482530612244897
235.0,0.5308999999999999,-0.6738714285714286,0.5829857142857143,29.392857142857142,19.977857142857143,-26.83457142857143
240.0,0.5201142857142858,-0.6626622448979591,0.5745775510204082,29.278061224489797,18.726275510204083,-28.186612244897958
245.0,0.5093285714285714,-0.6514530612244898,0.5661693877551021,29.163265306122447,17.474693877551022,-29.53865306122449
250.0,0.4985428571428571,-0.6402438775510204,0.5577612244897959,29.0484693877551,16.223112244897962,-30.89069387755102
255.0,0.48775714285714283,-0.629034693877551,0.5493530612244898,28.933673469387756,14.971530612244898,-32.24273469387755
260.0,0.47697142857142855,-0.6178255102040816,0.5409448979591838,28.818877551020407,13.719948979591837,-33.59477551020408
265.0,0.47091,-0.60319,0.54383,28.0281,12.7409,-33.584199999999996
270.0,0.471935,-0.583415,0.563655,26.22335,12.17065,-31.5297
275.0,0.47296,-0.56364,0.58348,24.418599999999998,11.6004,-29.4752
280.0,0.473985,-0.543865,0.603305,22.61385,11.03015,-27.4207
285.0,0.47825,-0.53015,0.618,21.3125,10.2345,-23.969
290.0,0.48574,-0.5290199999999999,0.61936,21.4504,9.3688,-18.712799999999998
295.0,0.493625,-0.53445,0.612025,22.93,8.719,-12.70325
300.0,0.50316,-0.5445,0.5999,25.4192,8.3684,-7.099799999999999
305.0,0.5155,-0.55676,0.58572,28.5124,8.3624,-1.9813999999999998
310.0,0.5322,-0.5715,0.5679,32.531,8.938,3.562
315.0,0.5461,-0.582,0.5544,35.469,10.125,7.281
320.0,0.55916,-0.59292,0.5404,37.699799999999996,12.4876,10.15
325.0,0.5662,-0.6010500000000001,0.529675,38.32825,15.156500000000001,11.328
330.0,0.56868,-0.60764,0.52018,37.8128,18.524800000000003,11.3124
335.0,0.5683499999999999,-0.61,0.5156499999999999,36.5155,21.828000000000003,10.266
340.0,0.56688,-0.60636,0.5178400000000001,34.656,24.9248,8.4504
345.0,0.5635749999999999,-0.595975,0.528725,32.148,27.59375,6.02375
350.0,0.55766,-0.5827399999999999,0.54658,29.2628,29.225,3.6938
355.0,0.5471,-0.5667,0.5728,25.469,29.844,1.2190000000000003
360.0,0.5386,-0.5549,0.5974,22.156,29.031,-0.5309999999999999
365.0,0.5342,-0.5464,0.6208,19.094,27.156,-1.9380000000000002
370.0,0.53806,-0.54136,0.64394,16.394199999999998,23.956,-2.975
375.0,0.5476749999999999,-0.5417,0.6567000000000001,15.117249999999999,20.99975,-3.3985
380.0,0.562,-0.54764,0.65942,15.0748,18.2186,-3.4314
385.0,0.5774,-0.5582499999999999,0.6511,16.3125,16.4375,-3.3280000000000003
390.0,0.59526,-0.57204,0.63372,18.787399999999998,15.8372,-3.281
395.0,0.618425,-0.5867,0.6096999999999999,22.476750000000003,16.7495,-3.4219999999999997
400.0,0.64388,-0.5970799999999999,0.58724,26.144000000000002,19.1372,-3.8442000000000003
405.0,0.6748,-0.6018,0.5667,29.375,23.469,-4.812
410.0,0.698,-0.5986,0.5591,30.125,28.156,-6.25
415.0,0.7174,-0.58904,0.56474,28.3748,34.2562,-8.7372
420.0,0.72658,-0.57846,0.58018,25.6312,39.2124,-10.9934
425.0,0.7277969696969697,-0.5663030303030303,0.6011262626262626,23.479868686868684,43.63307070707071,-12.317171717171716
430.0,0.7182818181818182,-0.5523181818181818,0.6162575757575758,25.09921212121212,47.10842424242424,-10.308030303030304
435.0,0.7087666666666667,-0.5383333333333333,0.6313888888888889,26.718555555555554,50.58377777777778,-8.29888888888889
440.0,0.6992515151515152,-0.5243484848484848,0.646520202020202,28.33789898989899,54.05913131313132,-6.2897474747474735
445.0,0.6897363636363636,-0.5103636363636364,0.6616515151515151,29.957242424242423,57.53448484848485,-4.280606060606059
450.0,0.6802212121212121,-0.4963787878787879,0.6767828282828283,31.576585858585858,61.009838383838385,-2.2714646464646453
455.0,0.6707060606060606,-0.48239393939393943,0.6919141414141414,33.19592929292929,64.48519191919192,-0.2623232323232312
460.0,0.661190909090909,-0.46840909090909094,0.7070454545454545,34.81527272727273,67.96054545454545,1.746818181818183
465.0,0.6516757575757576,-0.45442424242424245,0.7221767676767676,36.43461616161616,71.43589898989899,3.755959595959597
470.0,0.6421606060606061,-0.44043939393939396,0.7373080808080807,38.0539595959596,74.91125252525252,5.765101010101011
475.0,0.6326454545454545,-0.42645454545454553,0.752439393939394,39.67330303030303,78.38660606060606,7.774242424242425
480.0,0.623130303030303,-0.41246969696969704,0.7675707070707071,41.29264646464647,81.8619595959596,9.783383838383836
485.0,0.6136151515151516,-0.39848484848484855,0.7827020202020202,42.9119898989899,85.33731313131312,11.79252525252525
490.0,0.6041000000000001,-0.38450000000000006,0.7978333333333334,44.531333333333336,88.81266666666667,13.801666666666664
495.0,0.5945848484848485,-0.3705151515151516,0.8129646464646465,46.15067676767677,92.28802020202019,15.810808080808078
500.0,0.585069696969697,-0.3565303030303031,0.8280959595959596,47.770020202020206,95.76337373737374,17.81994949494949
505.0,0.5755545454545454,-0.34254545454545454,0.8432272727272727,49.38936363636364,99.23872727272727,19.829090909090908
510.0,0.566039393939394,-0.3285606060606061,0.8583585858585859,51.008707070707075,102.71408080808081,21.838232323232326
515.0,0.5565242424242425,-0.31457575757575756,0.873489898989899,52.62805050505051,106.18943434343434,23.847373737373736
520.0,0.5470090909090909,-0.3005909090909091,0.8886212121212123,54.247393939393945,109.66478787878788,25.856515151515147
525.0,0.50958,-0.28556000000000004,0.905,54.0159,114.7594,27.6433
530.0,0.43028,-0.26896000000000003,0.92325,51.00815,122.2829,29.09655
535.0,0.35097999999999996,-0.25236000000000003,0.9415,48.0004,129.8064,30.5498
540.0,0.27168,-0.23576,0.95975,44.992650000000005,137.3299,32.00305
545.0,0.14616666666666667,-0.20826666666666668,0.9938333333333333,38.77066666666666,146.26066666666665,31.771
550.0,0.005199999999999996,-0.17214000000000002,1.04172,30.0124,152.4938,29.093400000000003
555.0,-0.1548,-0.1228,1.1052,19.125,156.188,25.094
560.0,-0.2942,-0.0725,1.1667,9.312,156.062,21.094
565.0,-0.46862,-0.00234,1.2489599999999998,-2.9628,151.49960000000002,15.6438
570.0,-0.6317,0.064175,1.3251249999999999,-14.25825,143.67975,10.344
575.0,-0.82854,0.1388,1.41246,-27.6438,130.0566,3.7066
580.0,-1.0345499999999999,0.20815,1.50085,-41.906,110.969,-3.5934999999999997
585.0,-1.24938,0.27072,1.59668,-58.0252,84.6436,-11.5686
590.0,-1.46995,0.322975,1.7066000000000001,-76.89075,48.922000000000004,-19.922
595.0,-1.65954,0.3553,1.8169600000000001,-95.525,9.168399999999998,-27.0438
