timestamp,ax,ay,az,gx,gy,gz
0.0,0.6785,-0.0283,1.0112,98.625,259.0,-17.844
5.0,0.66965,-0.028499999999999998,1.0177500000000002,87.53125,248.67975,-20.4925
10.0,0.6608,-0.0287,1.0243000000000002,76.4375,238.3595,-23.141
15.0,0.65195,-0.028900000000000002,1.03085,65.34375,228.03924999999998,-25.7895
20.0,0.6431,-0.0291,1.0374,54.25,217.719,-28.438
25.0,0.65465,-0.0304,1.0636999999999999,36.297,196.6095,-32.8905
30.0,0.68846,-0.04182,1.0792000000000002,25.1128,181.7936,-35.0752
35.0,0.738325,-0.057,1.089325,16.7265,168.82825,-35.8755
40.0,0.7826,-0.06709999999999999,1.09574,12.331199999999999,159.9438,-35.2124
45.0,0.8184,-0.0715,1.1057,10.094,152.406,-33.438
50.0,0.83148,-0.07016,1.1235199999999999,9.344,145.6372,-31.400399999999998
55.0,0.8328249999999999,-0.06815,1.144925,8.5235,138.5465,-30.0155
60.0,0.83386,-0.06808,1.17146,6.5748,128.5376,-29.0624
65.0,0.84136,-0.07094,1.1941,3.5688,118.1064,-28.4004
70.0,0.8595999999999999,-0.07725,1.21495,-1.2345,105.5625,-27.515500000000003
75.0,0.88474,-0.08668,1.22716,-7.2936,92.9436,-26.462
80.0,0.911525,-0.09989999999999999,1.226325,-14.24975,80.39075,-25.54675
85.0,0.9322400000000001,-0.11516,1.21046,-20.3066,69.6942,-25.375
90.0,0.9514,-0.136,1.1753,-26.031,58.375,-26.094
95.0,0.9653,-0.156,1.1318,-29.156,50.031,-27.344
100.0,0.9792,-0.1763,1.0789,-30.625,43.125,-28.844
105.0,0.9980199999999999,-0.19658,1.00656,-30.1004,37.5438,-30.581400000000002
110.0,1.017925,-0.207925,0.941775,-28.05475,34.9845,-31.632749999999998
115.0,1.04228,-0.21236,0.87482,-24.581400000000002,34.5438,-31.6004
120.0,1.05965,-0.2114,0.81795,-20.4845,35.6095,-30.1565
125.0,1.0641800000000001,-0.20858,0.7696,-15.656200000000002,36.7688,-27.8876
130.0,1.0587499999999999,-0.20645,0.7301500000000001,-9.70325,36.461,-25.59375
135.0,1.05518,-0.20642,0.7068,-3.5936000000000003,33.9748,-24.049799999999998
140.0,1.0608,-0.209,0.6953,3.594,29.406,-22.625
145.0,1.0706,-0.2117,0.6968,9.125,25.562,-21.281
150.0,1.0754,-0.2122,0.7026,13.781,22.656,-19.625
155.0,1.0639,-0.2082,0.7092,17.96875,19.711,-17.32025
160.0,1.03976,-0.20198000000000002,0.71258,20.162399999999998,16.169,-15.5062
165.0,1.01462,-0.19646,0.71352,20.6934,11.706399999999999,-14.4066
170.0,0.9984554317548747,-0.1930200557103064,0.7136133704735377,20.5848077994429,8.688022284122562,-13.802378830083565
175.0,0.9958440111420613,-0.19207019498607242,0.7141467966573817,20.641827298050142,9.15807799442897,-13.46332590529248
180.0,0.993232590529248,-0.19112033426183844,0.7146802228412257,20.69884679665738,9.628133704735376,-13.124272980501393
185.0,0.9906211699164346,-0.19017047353760444,0.7152136490250697,20.755866295264624,10.098189415041784,-12.785220055710306
190.0,0.9880097493036212,-0.18922061281337046,0.7157470752089137,20.812885793871867,10.56824512534819,-12.446167130919221
195.0,0.9853983286908079,-0.1882707520891365,0.7162805013927577,20.86990529247911,11.038300835654596,-12.107114206128134
200.0,0.9827869080779945,-0.1873208913649025,0.7168139275766017,20.926924791086353,11.508356545961004,-11.768061281337047
205.0,0.9801754874651811,-0.1863710306406685,0.7173473537604457,20.983944289693593,11.97841225626741,-11.429008356545962
210.0,0.9775640668523677,-0.18542116991643454,0.7178807799442898,21.040963788300836,12.448467966573816,-11.089955431754875
215.0,0.9749526462395544,-0.18447130919220056,0.7184142061281338,21.09798328690808,12.918523676880223,-10.750902506963788
220.0,0.972341225626741,-0.18352144846796656,0.7189476323119778,21.15500278551532,13.38857938718663,-10.411849582172703
225.0,0.9697298050139276,-0.18257158774373258,0.7194810584958218,21.212022284122565,13.858635097493035,-10.072796657381616
230.0,0.9671183844011143,-0.1816217270194986,0.7200144846796658,21.269041782729804,14.328690807799443,-9.73374373259053
235.0,0.9645069637883009,-0.1806718662952646,0.7205479108635098,21.326061281337047,14.798746518105851,-9.394690807799442
240.0,0.9618955431754875,-0.17972200557103063,0.7210813370473538,21.38308077994429,15.268802228412255,-9.055637883008357
245.0,0.9592841225626741,-0.17877214484679665,0.7216147632311978,21.440100278551533,15.738857938718663,-8.71658495821727
250.0,0.9566727019498608,-0.17782228412256268,0.7221481894150418,21.497119777158776,16.20891364902507,-8.377532033426185
255.0,0.9540612813370474,-0.17687242339832868,0.7226816155988858,21.55413927576602,16.678969359331475,-8.038479108635098
260.0,0.951449860724234,-0.1759225626740947,0.7232150417827299,21.61115877437326,17.149025069637883,-7.699426183844011
265.0,0.9488384401114207,-0.17497270194986073,0.7237484679665739,21.6681782729805,17.61908077994429,-7.360373259052926
270.0,0.9462270194986073,-0.17402284122562672,0.7242818941504179,21.725197771587744,18.089136490250695,-7.021320334261839
275.0,0.9436155988857939,-0.17307298050139275,0.7248153203342619,21.782217270194987,18.559192200557103,-6.682267409470753
280.0,0.9410041782729806,-0.17212311977715877,0.7253487465181059,21.83923676880223,19.02924791086351,-6.343214484679666
285.0,0.9383927576601672,-0.1711732590529248,0.7258821727019499,21.89625626740947,19.499303621169915,-6.004161559888579
290.0,0.9357813370473538,-0.1702233983286908,0.7264155988857939,21.953275766016713,19.969359331476323,-5.665108635097495
295.0,0.9331699164345404,-0.16927353760445682,0.7269490250696379,22.010295264623956,20.43941504178273,-5.326055710306408
300.0,0.9305584958217271,-0.16832367688022284,0.7274824512534819,22.0673147632312,20.909470752089135,-4.987002785515321
305.0,0.9279470752089137,-0.16737381615598884,0.728015877437326,22.12433426183844,21.379526462395546,-4.647949860724234
310.0,0.9253356545961003,-0.16642395543175487,0.72854930362117,22.18135376044568,21.84958217270195,-4.308896935933147
315.0,0.922724233983287,-0.1654740947075209,0.729082729805014,22.238373259052924,22.319637883008355,-3.9698440111420616
320.0,0.9201128133704736,-0.16452423398328692,0.729616155988858,22.295392757660167,22.789693593314762,-3.6307910863509747
325.0,0.9175013927576602,-0.1635743732590529,0.730149582172702,22.35241225626741,23.25974930362117,-3.2917381615598877
330.0,0.9148899721448469,-0.16262451253481894,0.730683008356546,22.409431754874653,23.729805013927574,-2.9526852367688026
335.0,0.9122785515320335,-0.16167465181058496,0.73121643454039,22.466451253481893,24.199860724233986,-2.6136323119777156
340.0,0.9096671309192201,-0.16072479108635096,0.731749860724234,22.523470752089136,24.66991643454039,-2.2745793871866304
345.0,0.9070557103064067,-0.15977493036211698,0.732283286908078,22.58049025069638,25.139972144846798,-1.9355264623955435
350.0,0.9044442896935934,-0.158825069637883,0.7328167130919221,22.63750974930362,25.610027855153202,-1.5964735376044565
355.0,0.90183286908078,-0.15787520891364903,0.7333501392757661,22.694529247910864,26.08008356545961,-1.2574206128133696
360.0,0.8992214484679666,-0.15692534818941503,0.7338835654596101,22.751548746518104,26.550139275766018,-0.9183676880222826
365.0,0.8966100278551532,-0.15597548746518106,0.7344169916434541,22.808568245125347,27.020194986072426,-0.5793147632311975
370.0,0.8939986072423398,-0.15502562674094705,0.7349504178272981,22.86558774373259,27.490250696378833,-0.2402618384401105
375.0,0.8913871866295265,-0.15407576601671308,0.7354838440111421,22.922607242339833,27.960306406685234,0.09879108635097467
380.0,0.8887757660167132,-0.1531259052924791,0.7360172701949861,22.979626740947076,28.430362116991642,0.43784401114205984
385.0,0.8861643454038998,-0.15217604456824513,0.7365506963788301,23.036646239554315,28.90041782729805,0.7768969359331468
390.0,0.8835529247910864,-0.15122618384401115,0.7370841225626741,23.093665738161558,29.370473537604457,1.1159498607242337
395.0,0.880941504178273,-0.15027632311977715,0.7376175487465182,23.1506852367688,29.840529247910865,1.4550027855153207
400.0,0.8783300835654597,-0.14932646239554317,0.7381509749303622,23.207704735376044,30.31058495821727,1.7940557103064076
405.0,0.8757186629526463,-0.1483766016713092,0.7386844011142062,23.264724233983287,30.780640668523677,2.1331086350974946
410.0,0.873107242339833,-0.1474267409470752,0.7392178272980502,23.32174373259053,31.250696378830085,2.4721615598885816
415.0,0.8704958217270196,-0.14647688022284122,0.7397512534818942,23.378763231197773,31.720752089136493,2.8112144846796685
420.0,0.8678844011142062,-0.14552701949860725,0.7402846796657382,23.435782729805013,32.190807799442894,3.150267409470752
425.0,0.8652729805013928,-0.14457715877437327,0.7408181058495822,23.492802228412256,32.660863509749305,3.489320334261839
430.0,0.8626615598885794,-0.1436272980501393,0.7413515320334262,23.5498217270195,33.13091922005571,3.828373259052926
435.0,0.860050139275766,-0.1426774373259053,0.7418849582172702,23.60684122562674,33.60097493036211,4.167426183844013
440.0,0.8574387186629527,-0.14172757660167132,0.7424183844011143,23.663860724233984,34.071030640668525,4.506479108635096
445.0,0.8548272980501394,-0.14077771587743731,0.7429518105849583,23.720880222841224,34.54108635097493,4.845532033426183
450.0,0.852215877437326,-0.13982785515320334,0.7434852367688023,23.777899721448467,35.01114206128133,5.18458495821727
455.0,0.8496044568245126,-0.13887799442896936,0.7440186629526463,23.83491922005571,35.481197771587745,5.523637883008357
460.0,0.8469930362116992,-0.1379281337047354,0.7445520891364903,23.891938718662953,35.951253481894156,5.862690807799444
465.0,0.8443816155988858,-0.1369782729805014,0.7450855153203343,23.948958217270196,36.42130919220056,6.201743732590531
470.0,0.8417701949860725,-0.1360284122562674,0.7456189415041783,24.005977715877435,36.891364902506965,6.540796657381614
475.0,0.8391587743732591,-0.13507855153203344,0.7461523676880223,24.062997214484678,37.36142061281337,6.879849582172701
480.0,0.8365473537604458,-0.13412869080779943,0.7466857938718663,24.12001671309192,37.83147632311977,7.218902506963788
485.0,0.8339359331476324,-0.13317883008356546,0.7472192200557104,24.177036211699164,38.301532033426184,7.557955431754875
490.0,0.831324512534819,-0.13222896935933148,0.7477526462395544,24.234055710306407,38.771587743732596,7.897008356545962
495.0,0.8287130919220056,-0.1312791086350975,0.7482860724233984,24.291075208913647,39.24164345403899,8.236061281337049
500.0,0.8261016713091922,-0.13032924791086353,0.7488194986072424,24.34809470752089,39.711699164345404,8.575114206128136
505.0,0.8234902506963788,-0.12937938718662953,0.7493529247910864,24.405114206128133,40.181754874651816,8.914167130919223
510.0,0.8208788300835654,-0.12842952646239553,0.7498863509749304,24.462133704735376,40.65181058495822,9.253220055710306
515.0,0.8182674094707522,-0.12747966573816155,0.7504197771587744,24.51915320334262,41.121866295264624,9.592272980501393
520.0,0.8156559888579388,-0.12652980501392758,0.7509532033426184,24.576172701949858,41.59192200557103,9.93132590529248
525.0,0.8130445682451254,-0.1255799442896936,0.7514866295264624,24.6331922005571,42.06197771587744,10.270378830083564
530.0,0.8009000000000001,-0.11569,0.756395,23.17475,44.0218,7.3733
535.0,0.7824,-0.09984,0.76422,20.706,46.9748,2.3187999999999995
540.0,0.7639,-0.08399,0.772045,18.23725,49.9278,-2.7356999999999996
545.0,0.7454,-0.06813999999999999,0.7798700000000001,15.7685,52.8808,-7.7902000000000005
550.0,0.7244,-0.0479,0.8135,14.781,54.062,-9.812
555.0,0.70946,-0.02598,0.86916,7.8062,55.3998,-16.343400000000003
560.0,0.70286,-0.00906,0.91514,2.4124,55.7996,-20.774800000000003
565.0,0.7019,0.009899999999999999,0.9712000000000001,-3.359,55.2185,-25.344
570.0,0.70736,0.02838,1.0300200000000002,-8.6996,53.080999999999996,-29.519000000000002
575.0,0.718225,0.046075,1.0864500000000001,-13.656500000000001,48.656,-33.28875
580.0,0.7309,0.06092,1.1237000000000001,-17.1376,42.330999999999996,-35.861999999999995
585.0,0.7461,0.0774,1.1455,-19.531,33.25,-37.344
590.0,0.7563,0.0947,1.1477,-20.344,25.562,-36.969
595.0,0.75914,0.12628,1.13722,-21.6872,19.0566,-34.988
